File: RxLog/Resource0.csv
Date/Time,Battery Remaining,Battery Current,Battery Voltage,Battery Temp,Battery Status,Battery Manufacturing Date,Battery Serial Number,Battery Part Number,Battery Rated Capacity (mAh),Battery Decommission Status,Battery Base Cumulative Charge (mAh),Battery Error Status,Battery Present Capacity (mAh),Battery Health Percentage (%),Battery Percent Decommission Threshold (%),Battery Present Charge (mAh),Battery Total Cumulative Charge (mAh),Battery Secs Since First Use (secs),Battery Time Remaining (mins),Battery Time to Full (mins),Battery Cycles,Ti Temp,Ti SOC,Ti Volt,Ti Current,Qti Temp,Qti SOC,Qti Volt,Qti Current,Charger Type,Screen State,Screen Brightness,Boot Count,Boot Reason,Event Type,Event Details
2023-09-12 10:41:55:389,7,2299226,3697,230,CHARGING,5/24/2023,T6084,BT-000370-50 R.A,6600,0,5559,0,6296,100,80,402,5850,582617,65535,313,0,24,7,3508,2315,230,7,3697970,2299226,,1,255,4,shutdown:battery,Resource Module start,
2023-09-12 10:42:36:414,7,2300752,3734,230,CHARGING,5/24/2023,T6084,BT-000370-50 R.A,6600,0,5559,0,6296,100,80,428,5850,582658,65535,224,0,24,7,3541,2314,230,7,3734171,2300752,,1,255,4,shutdown:battery,Heartbeat,
2023-09-12 10:43:17:310,8,2302277,3754,230,CHARGING,5/24/2023,T6084,BT-000370-50 R.A,6600,0,5559,0,6296,100,80,455,5850,582699,65535,220,0,24,8,3563,2318,230,8,3754412,2302277,,1,255,4,shutdown:battery,Heartbeat,
2023-09-12 10:43:58:416,8,2301972,3765,230,CHARGING,5/24/2023,T6084,BT-000370-50 R.A,6600,0,5633,0,6296,100,80,482,5924,582741,65535,219,0,24,8,3574,2321,230,8,3765506,2301972,,1,255,4,shutdown:battery,Heartbeat,
2023-09-12 10:44:39:590,9,2301667,3769,230,CHARGING,5/24/2023,T6084,BT-000370-50 R.A,6600,0,5633,0,6296,100,80,508,5924,582782,65535,218,0,24,9,3579,2319,230,9,3769399,2301667,,1,255,4,shutdown:battery,Heartbeat,
2023-09-12 10:45:20:673,9,2300446,3773,240,CHARGING,5/24/2023,T6084,BT-000370-50 R.A,6600,0,5633,0,6296,100,80,535,5924,582823,65535,217,0,24,9,3582,2320,240,9,3773291,2300446,,1,255,4,shutdown:battery,Heartbeat,
2023-09-12 10:46:01:831,9,2303193,3774,240,CHARGING,5/24/2023,T6084,BT-000370-50 R.A,6600,0,5713,0,6296,100,80,562,6004,582865,65535,217,0,25,9,3585,2321,240,9,3774459,2303193,,1,255,4,shutdown:battery,Heartbeat,
2023-09-12 10:46:42:971,10,2299531,3777,240,CHARGING,5/24/2023,T6084,BT-000370-50 R.A,6600,0,5713,0,6296,100,80,588,6004,582906,65535,216,0,25,10,3588,2319,240,10,3777962,2299531,,1,255,4,shutdown:battery,Heartbeat,
2023-09-12 10:47:23:990,10,2301667,3780,250,CHARGING,5/24/2023,T6084,BT-000370-50 R.A,6600,0,5713,0,6296,100,80,614,6004,582947,65535,215,0,25,10,3591,2317,250,10,3780882,2301667,,1,255,4,shutdown:battery,Heartbeat,
2023-09-12 10:48:04:935,11,2298005,3783,250,CHARGING,5/24/2023,T6084,BT-000370-50 R.A,6600,0,5792,0,6296,100,80,641,6083,582989,65535,215,0,25,11,3594,2318,250,11,3783996,2298005,,1,255,4,shutdown:battery,Heartbeat,
2023-09-12 10:48:46:148,11,2301667,3787,250,CHARGING,5/24/2023,T6084,BT-000370-50 R.A,6600,0,5792,0,6296,100,80,668,6083,583030,65535,214,0,25,11,3597,2318,250,11,3787889,2301667,,1,255,4,shutdown:battery,Heartbeat,
2023-09-12 10:49:27:392,12,2298005,3790,250,CHARGING,5/24/2023,T6084,BT-000370-50 R.A,6600,0,5792,0,6296,100,80,694,6083,583071,65535,213,0,25,12,3600,2319,250,12,3790613,2298005,,1,255,4,shutdown:battery,Heartbeat,
2023-09-12 10:50:08:646,12,2301057,3794,250,CHARGING,5/24/2023,T6084,BT-000370-50 R.A,6600,0,5872,0,6296,100,80,718,6163,583108,65535,213,0,26,12,3603,2318,250,12,3794506,2301057,,1,255,4,shutdown:battery,Heartbeat,
2023-09-12 10:50:49:826,12,2298920,3797,250,CHARGING,5/24/2023,T6084,BT-000370-50 R.A,6600,0,5872,0,6296,100,80,744,6163,583148,65535,212,0,26,12,3607,2318,250,12,3797815,2298920,,1,255,4,shutdown:battery,Heartbeat,
2023-09-12 10:51:31:020,13,2302277,3801,250,CHARGING,5/24/2023,T6084,BT-000370-50 R.A,6600,0,5872,0,6296,100,80,773,6163,583194,65535,211,0,26,13,3610,2319,250,13,3801707,2302277,,1,255,4,shutdown:battery,Heartbeat,
2023-09-12 10:52:12:257,13,2299836,3804,250,CHARGING,5/24/2023,T6084,BT-000370-50 R.A,6600,0,5952,0,6296,100,80,797,6243,583231,65535,211,0,26,13,3614,2319,250,13,3804237,2299531,,1,255,4,shutdown:battery,Heartbeat,
2023-09-12 10:52:53:528,14,2297700,3809,260,CHARGING,5/24/2023,T6084,BT-000370-50 R.A,6600,0,5952,0,6296,100,80,824,6243,583272,65535,210,0,26,14,3617,2319,260,14,3809103,2297700,,1,255,4,shutdown:battery,Heartbeat,
2023-09-12 10:53:34:692,14,2299836,3812,260,CHARGING,5/24/2023,T6084,BT-000370-50 R.A,6600,0,5952,0,6296,100,80,850,6243,583313,65535,209,0,26,14,3621,2320,260,14,3812412,2302583,,1,255,4,shutdown:battery,Heartbeat,
2023-09-12 10:54:15:811,14,2301057,3816,260,CHARGING,5/24/2023,T6084,BT-000370-50 R.A,6600,0,6332,0,6296,100,80,877,6623,583355,65535,209,0,26,14,3625,2319,260,14,3816888,2301057,,1,255,4,shutdown:battery,Heartbeat,
2023-09-12 10:54:56:989,15,2302277,3821,260,CHARGING,5/24/2023,T6084,BT-000370-50 R.A,6600,0,6332,0,6296,100,80,904,6623,583396,65535,208,0,27,15,3629,2318,260,15,3821949,2302277,,1,255,4,shutdown:battery,Heartbeat,
2023-09-12 10:55:38:250,15,2300446,3825,260,CHARGING,5/24/2023,T6084,BT-000370-50 R.A,6600,0,6332,0,6296,100,80,930,6623,583437,65535,207,0,27,15,3633,2319,260,15,3825452,2301057,,1,255,4,shutdown:battery,Heartbeat,
2023-09-12 10:56:19:428,16,2300752,3830,260,CHARGING,5/24/2023,T6084,BT-000370-50 R.A,6600,0,6412,0,6296,100,80,957,6703,583479,65535,206,0,27,16,3638,2319,260,16,3830123,2300752,,1,255,4,shutdown:battery,Heartbeat,
2023-09-12 10:57:00:651,16,2299226,3834,260,CHARGING,5/24/2023,T6084,BT-000370-50 R.A,6600,0,6412,0,6296,100,80,983,6703,583520,65535,206,0,27,16,3642,2318,260,16,3833627,2300141,,1,255,4,shutdown:battery,Heartbeat,
2023-09-12 10:57:41:810,16,2295563,3836,270,CHARGING,5/24/2023,T6084,BT-000370-50 R.A,6600,0,6412,0,6288,100,80,995,6703,583561,65535,205,0,27,16,3646,2319,270,16,3836546,2295563,,1,255,4,shutdown:battery,Heartbeat,
2023-09-12 10:58:23:148,17,2298005,3842,270,CHARGING,5/24/2023,T6084,BT-000370-50 R.A,6600,0,6492,0,6288,100,80,1022,6783,583603,65535,205,0,27,17,3651,2318,270,17,3842580,2298005,,1,255,4,shutdown:battery,Heartbeat,
2023-09-12 10:59:04:368,17,2297700,3847,270,CHARGING,5/24/2023,T6084,BT-000370-50 R.A,6600,0,6492,0,6288,100,80,1048,6783,583644,65535,204,0,27,17,3655,2318,270,17,3847640,2297700,,1,255,4,shutdown:battery,Heartbeat,
2023-09-12 10:59:45:641,18,2301972,3852,270,CHARGING,5/24/2023,T6084,BT-000370-50 R.A,6600,0,6492,0,6288,100,80,1075,6783,583685,65535,203,0,27,18,3660,2319,270,18,3852116,2301972,,1,255,4,shutdown:battery,Heartbeat,
2023-09-12 11:00:26:806,18,2301057,3856,270,CHARGING,5/24/2023,T6084,BT-000370-50 R.A,6600,0,6571,0,6288,100,80,1102,6862,583728,65535,203,0,27,18,3664,2318,270,18,3856788,2301667,,1,255,4,shutdown:battery,Heartbeat,
2023-09-12 11:01:07:990,18,2296784,3860,270,CHARGING,5/24/2023,T6084,BT-000370-50 R.A,6600,0,6571,0,6288,100,80,1129,6862,583769,65535,202,0,28,18,3669,2318,270,18,3861069,2300141,,1,255,4,shutdown:battery,Heartbeat,
2023-09-12 11:01:49:190,19,2298310,3865,270,CHARGING,5/24/2023,T6084,BT-000370-50 R.A,6600,0,6571,0,6288,100,80,1155,6862,583810,65535,201,0,28,19,3673,2319,270,19,3865546,2298310,,1,255,4,shutdown:battery,Heartbeat,
2023-09-12 11:02:30:510,19,2299531,3870,270,CHARGING,5/24/2023,T6084,BT-000370-50 R.A,6600,0,6651,0,6288,100,80,1182,6942,583852,65535,201,0,28,19,3678,2318,270,19,3870412,2299531,,1,255,4,shutdown:battery,Heartbeat,
2023-09-12 11:03:11:675,20,2298310,3874,280,CHARGING,5/24/2023,T6084,BT-000370-50 R.A,6600,0,6651,0,6288,100,80,1209,6942,583893,65535,200,0,28,20,3682,2318,280,20,3874694,2298615,,1,255,4,shutdown:battery,Heartbeat,
2023-09-12 11:03:52:795,20,2301667,3878,280,CHARGING,5/24/2023,T6084,BT-000370-50 R.A,6600,0,6651,0,6288,100,80,1235,6942,583934,65535,199,0,28,20,3687,2319,280,20,3878586,2301667,,1,255,4,shutdown:battery,Heartbeat,
2023-09-12 11:04:33:992,21,2298005,3884,280,CHARGING,5/24/2023,T6084,BT-000370-50 R.A,6600,0,6731,0,6288,100,80,1262,7022,583976,65535,199,0,28,21,3692,2317,280,21,3884036,2298005,,1,255,4,shutdown:battery,Heartbeat,
2023-09-12 11:05:15:108,21,2300446,3888,280,CHARGING,5/24/2023,T6084,BT-000370-50 R.A,6600,0,6731,0,6288,100,80,1288,7022,584017,65535,198,0,28,21,3696,2317,280,21,3888707,2300446,,1,255,4,shutdown:battery,Heartbeat,
2023-09-12 11:05:56:347,21,2301362,3893,280,CHARGING,5/24/2023,T6084,BT-000370-50 R.A,6600,0,6731,0,6288,100,80,1315,7022,584058,65535,197,0,28,21,3700,2317,280,21,3893183,2301362,,1,255,4,shutdown:battery,Heartbeat,
2023-09-12 11:06:37:555,22,2295869,3897,280,CHARGING,5/24/2023,T6084,BT-000370-50 R.A,6600,0,6812,0,6288,100,80,1342,7103,584100,65535,196,0,28,22,3704,2317,280,22,3897076,2295869,,1,255,4,shutdown:battery,Heartbeat,
2023-09-12 11:07:18:790,22,2296174,3900,280,CHARGING,5/24/2023,T6084,BT-000370-50 R.A,6600,0,6812,0,6288,100,80,1368,7103,584141,65535,196,0,28,22,3708,2317,280,22,3900385,2296784,,1,255,4,shutdown:battery,Heartbeat,
2023-09-12 11:08:00:027,23,2298920,3904,280,CHARGING,5/24/2023,T6084,BT-000370-50 R.A,6600,0,6812,0,6288,100,80,1395,7103,584182,65535,195,0,28,23,3712,2318,280,23,3904472,2298920,,1,255,4,shutdown:battery,Heartbeat,
2023-09-12 11:08:41:189,23,2297700,3908,280,CHARGING,5/24/2023,T6084,BT-000370-50 R.A,6600,0,6891,0,6288,100,80,1418,7182,584219,65535,194,0,29,23,3715,2318,280,23,3908365,2297700,,1,255,4,shutdown:battery,Heartbeat,
2023-09-12 11:09:22:385,24,2299531,3907,280,CHARGING,5/24/2023,T6084,BT-000370-50 R.A,6600,0,6891,0,6288,100,80,1448,7182,584265,65535,194,0,29,24,3718,2318,280,24,3907975,2299531,,1,255,4,shutdown:battery,Heartbeat,
2023-09-12 11:10:03:608,24,2293732,3913,280,CHARGING,5/24/2023,T6084,BT-000370-50 R.A,6600,0,6891,0,6288,100,80,1474,7182,584306,65535,193,0,29,24,3722,2318,280,24,3913620,2293732,,1,255,4,shutdown:battery,Heartbeat,
2023-09-12 11:10:44:914,24,2297700,3917,290,CHARGING,5/24/2023,T6084,BT-000370-50 R.A,6600,0,6971,0,6288,100,80,1498,7262,584343,65535,192,0,29,24,3725,2318,290,24,3916928,2295869,,1,255,4,shutdown:battery,Heartbeat,
2023-09-12 11:11:26:151,25,2296479,3920,290,CHARGING,5/24/2023,T6084,BT-000370-50 R.A,6600,0,6971,0,6288,100,80,1525,7262,584384,65535,192,0,29,25,3728,2318,290,25,3920237,2296479,,1,255,4,shutdown:battery,Heartbeat,
2023-09-12 11:12:07:327,25,2298310,3922,290,CHARGING,5/24/2023,T6084,BT-000370-50 R.A,6600,0,6971,0,6288,100,80,1554,7262,584430,65535,191,0,29,25,3731,2318,290,25,3922962,2298310,,1,255,4,shutdown:battery,Heartbeat,
2023-09-12 11:12:48:414,26,2298920,3926,290,CHARGING,5/24/2023,T6084,BT-000370-50 R.A,6600,0,7050,0,6288,100,80,1578,7341,584467,65535,190,0,29,26,3733,2316,290,26,3926076,2298920,,1,255,4,shutdown:battery,Heartbeat,
2023-09-12 11:13:29:509,26,2298615,3927,290,CHARGING,5/24/2023,T6084,BT-000370-50 R.A,6600,0,7050,0,6288,100,80,1604,7341,584508,65535,190,0,29,26,3735,2317,290,26,3927828,2298615,,1,255,4,shutdown:battery,Heartbeat,
2023-09-12 11:14:10:706,26,2295869,3929,290,CHARGING,5/24/2023,T6084,BT-000370-50 R.A,6600,0,7050,0,6288,100,80,1631,7341,584549,65535,189,0,29,26,3738,2317,290,26,3929774,2295869,,1,255,4,shutdown:battery,Heartbeat,
2023-09-12 11:14:51:813,27,2295258,3932,290,CHARGING,5/24/2023,T6084,BT-000370-50 R.A,6600,0,7130,0,6288,100,80,1658,7421,584591,65535,188,0,29,27,3740,2317,290,27,3932499,2296479,,1,255,4,shutdown:battery,Heartbeat,
2023-09-12 11:15:32:984,27,2297700,3934,300,CHARGING,5/24/2023,T6084,BT-000370-50 R.A,6600,0,7130,0,6288,100,80,1684,7421,584632,65535,188,0,29,27,3742,2318,300,27,3932888,2292512,,1,255,4,shutdown:battery,Heartbeat,
2023-09-12 11:16:14:193,28,2298005,3937,300,CHARGING,5/24/2023,T6084,BT-000370-50 R.A,6600,0,7130,0,6288,100,80,1711,7421,584673,65535,187,0,29,28,3745,2318,300,28,3936391,2296479,,1,255,4,shutdown:battery,Heartbeat,
2023-09-12 11:16:55:412,28,2300446,3940,300,CHARGING,5/24/2023,T6084,BT-000370-50 R.A,6600,0,7210,0,6288,100,80,1738,7501,584715,65535,186,0,29,28,3748,2317,300,28,3940284,2300446,,1,255,4,shutdown:battery,Heartbeat,
2023-09-12 11:17:36:711,29,2299226,3942,300,CHARGING,5/24/2023,T6084,BT-000370-50 R.A,6600,0,7210,0,6288,100,80,1764,7501,584756,65535,186,0,30,29,3750,2317,300,29,3942619,2299226,,1,255,4,shutdown:battery,Heartbeat,
2023-09-12 11:18:17:911,29,2299836,3944,300,CHARGING,5/24/2023,T6084,BT-000370-50 R.A,6600,0,7210,0,6288,100,80,1790,7501,584796,65535,185,0,30,29,3752,2316,300,29,3944371,2298615,,1,255,4,shutdown:battery,Heartbeat,
2023-09-12 11:18:59:137,29,2296479,3947,300,CHARGING,5/24/2023,T6084,BT-000370-50 R.A,6600,0,7290,0,6288,100,80,1817,7581,584838,65535,184,0,30,29,3755,2317,300,29,3947485,2297700,,1,255,4,shutdown:battery,Heartbeat,
2023-09-12 11:19:40:260,30,2297089,3949,300,CHARGING,5/24/2023,T6084,BT-000370-50 R.A,6600,0,7290,0,6288,100,80,1843,7581,584879,65535,183,0,30,30,3757,2318,300,30,3949431,2297089,,1,255,4,shutdown:battery,Heartbeat,
2023-09-12 11:20:21:468,30,2298005,3952,300,CHARGING,5/24/2023,T6084,BT-000370-50 R.A,6600,0,7290,0,6288,100,80,1870,7581,584920,65535,183,0,30,30,3760,2317,300,30,3952351,2294648,,1,255,4,shutdown:battery,Heartbeat,
2023-09-12 11:21:02:654,31,2294343,3953,300,CHARGING,5/24/2023,T6084,BT-000370-50 R.A,6600,0,7370,0,6288,100,80,1897,7661,584962,65535,182,0,30,31,3762,2318,300,31,3953908,2294343,,1,255,4,shutdown:battery,Heartbeat,
2023-09-12 11:21:43:915,31,2294343,3956,300,CHARGING,5/24/2023,T6084,BT-000370-50 R.A,6600,0,7370,0,6288,100,80,1923,7661,585003,65535,181,0,30,31,3764,2318,300,31,3956438,2294343,,1,255,4,shutdown:battery,Heartbeat,
2023-09-12 11:22:25:148,31,2295563,3959,300,CHARGING,5/24/2023,T6084,BT-000370-50 R.A,6600,0,7370,0,6288,100,80,1949,7661,585044,65535,181,0,30,31,3767,2317,300,31,3959163,2295563,,1,255,4,shutdown:battery,Heartbeat,
2023-09-12 11:23:06:412,32,2294953,3961,300,CHARGING,5/24/2023,T6084,BT-000370-50 R.A,6600,0,7449,0,6290,100,80,1975,7740,585086,65535,180,0,30,32,3769,2316,300,32,3961693,2294953,,1,255,4,shutdown:battery,Heartbeat,
2023-09-12 11:23:47:636,32,2297395,3964,300,CHARGING,5/24/2023,T6084,BT-000370-50 R.A,6600,0,7449,0,6290,100,80,2002,7740,585127,65535,179,0,30,32,3772,2318,300,32,3964418,2297700,,1,255,4,shutdown:battery,Heartbeat,
2023-09-12 11:24:28:889,33,2296479,3967,300,CHARGING,5/24/2023,T6084,BT-000370-50 R.A,6600,0,7449,0,6290,100,80,2028,7740,585168,65535,179,0,30,33,3774,2317,300,33,3966948,2296784,,1,255,4,shutdown:battery,Heartbeat,
2023-09-12 11:25:09:992,33,2298310,3969,300,CHARGING,5/24/2023,T6084,BT-000370-50 R.A,6600,0,7529,0,6290,100,80,2055,7820,585210,65535,178,0,30,33,3777,2317,300,33,3969868,2298005,,1,255,4,shutdown:battery,Heartbeat,
2023-09-12 11:25:51:172,34,2297395,3972,300,CHARGING,5/24/2023,T6084,BT-000370-50 R.A,6600,0,7529,0,6290,100,80,2082,7820,585251,65535,177,0,30,34,3779,2318,300,34,3971619,2296479,,1,255,4,shutdown:battery,Heartbeat,
2023-09-12 11:26:32:347,34,2297395,3974,300,CHARGING,5/24/2023,T6084,BT-000370-50 R.A,6600,0,7529,0,6290,100,80,2108,7820,585292,65535,177,0,31,34,3782,2317,300,34,3973760,2298310,,1,255,4,shutdown:battery,Heartbeat,
2023-09-12 11:27:13:589,34,2299226,3977,310,CHARGING,5/24/2023,T6084,BT-000370-50 R.A,6600,0,7609,0,6290,100,80,2135,7900,585334,65535,176,0,31,34,3785,2317,310,34,3976680,2300141,,1,255,4,shutdown:battery,Heartbeat,
2023-09-12 11:27:54:871,35,2297395,3979,310,CHARGING,5/24/2023,T6084,BT-000370-50 R.A,6600,0,7609,0,6290,100,80,2161,7900,585375,65535,175,0,31,35,3787,2317,310,35,3979599,2297395,,1,255,4,shutdown:battery,Heartbeat,
2023-09-12 11:28:36:150,35,2297700,3982,310,CHARGING,5/24/2023,T6084,BT-000370-50 R.A,6600,0,7609,0,6290,100,80,2188,7900,585416,65535,175,0,31,35,3790,2316,310,35,3982908,2297700,,1,255,4,shutdown:battery,Heartbeat,
2023-09-12 11:29:17:353,36,2298005,3985,310,CHARGING,5/24/2023,T6084,BT-000370-50 R.A,6600,0,7689,0,6290,100,80,2211,7980,585452,65535,174,0,31,36,3792,2317,310,36,3985049,2296784,,1,255,4,shutdown:battery,Heartbeat,
2023-09-12 11:29:58:583,36,2294953,3988,310,CHARGING,5/24/2023,T6084,BT-000370-50 R.A,6600,0,7689,0,6290,100,80,2238,7980,585494,65535,173,0,31,36,3795,2316,310,36,3988552,2294953,,1,255,4,shutdown:battery,Heartbeat,
2023-09-12 11:30:39:856,37,2296479,3990,310,CHARGING,5/24/2023,T6084,BT-000370-50 R.A,6600,0,7689,0,6290,100,80,2268,7980,585540,65535,173,0,31,37,3798,2317,310,37,3990498,2296479,,1,255,4,shutdown:battery,Heartbeat,
2023-09-12 11:31:21:113,37,2297395,3994,310,CHARGING,5/24/2023,T6084,BT-000370-50 R.A,6600,0,7768,0,6290,100,80,2291,8059,585576,65535,172,0,31,37,3801,2317,310,37,3994002,2297395,,1,255,4,shutdown:battery,Heartbeat,
2023-09-12 11:32:02:291,37,2296174,3997,310,CHARGING,5/24/2023,T6084,BT-000370-50 R.A,6600,0,7768,0,6290,100,80,2318,8059,585618,65535,171,0,31,37,3803,2317,310,37,3997116,2296174,,1,255,4,shutdown:battery,Heartbeat,
2023-09-12 11:32:43:449,38,2299226,3998,310,CHARGING,5/24/2023,T6084,BT-000370-50 R.A,6600,0,7768,0,6290,100,80,2344,8059,585659,65535,171,0,31,38,3806,2317,310,38,3998867,2299226,,1,255,4,shutdown:battery,Heartbeat,
2023-09-12 11:33:24:634,38,2294343,4002,310,CHARGING,5/24/2023,T6084,BT-000370-50 R.A,6600,0,7848,0,6290,100,80,2371,8139,585700,65535,170,0,31,38,3809,2318,310,38,4001008,2295258,,1,255,4,shutdown:battery,Heartbeat,
2023-09-12 11:34:05:890,39,2297395,4005,310,CHARGING,5/24/2023,T6084,BT-000370-50 R.A,6600,0,7848,0,6290,100,80,2398,8139,585742,65535,169,0,31,39,3812,2317,310,39,4005680,2297395,,1,255,4,shutdown:battery,Heartbeat,
2023-09-12 11:34:47:190,39,2297089,4008,320,CHARGING,5/24/2023,T6084,BT-000370-50 R.A,6600,0,7848,0,6290,100,80,2424,8139,585783,65535,168,0,31,39,3815,2316,320,39,4008794,2297089,,1,255,4,shutdown:battery,Heartbeat,
2023-09-12 11:35:28:349,39,2297089,4011,320,CHARGING,5/24/2023,T6084,BT-000370-50 R.A,6600,0,7928,0,6290,100,80,2450,8219,585824,65535,168,0,32,39,3818,2318,320,39,4011518,2297089,,1,255,4,shutdown:battery,Heartbeat,
2023-09-12 11:36:09:571,40,2296174,4014,320,CHARGING,5/24/2023,T6084,BT-000370-50 R.A,6600,0,7928,0,6290,100,80,2477,8219,585866,65535,167,0,32,40,3822,2315,320,40,4014243,2296174,,1,255,4,shutdown:battery,Heartbeat,
2023-09-12 11:36:50:834,40,2296174,4017,320,CHARGING,5/24/2023,T6084,BT-000370-50 R.A,6600,0,7928,0,6290,100,80,2504,8219,585907,65535,166,0,32,40,3824,2316,320,40,4017941,2296174,,1,255,4,shutdown:battery,Heartbeat,
2023-09-12 11:37:32:029,41,2296479,4020,320,CHARGING,5/24/2023,T6084,BT-000370-50 R.A,6600,0,8008,0,6290,100,80,2530,8299,585948,65535,166,0,32,41,3828,2317,320,41,4021055,2293732,,1,255,4,shutdown:battery,Heartbeat,
2023-09-12 11:38:13:130,41,2295258,4024,320,CHARGING,5/24/2023,T6084,BT-000370-50 R.A,6600,0,8008,0,6290,100,80,2558,8299,585991,65535,165,0,32,41,3831,2316,320,41,4024753,2295258,,1,255,4,shutdown:battery,Heartbeat,
2023-09-12 11:38:54:295,42,2294953,4026,320,CHARGING,5/24/2023,T6084,BT-000370-50 R.A,6600,0,8008,0,6290,100,80,2583,8299,586031,65535,164,0,32,42,3835,2316,320,42,4026116,2294953,,1,255,4,shutdown:battery,Heartbeat,
2023-09-12 11:39:35:509,42,2292817,4030,320,CHARGING,5/24/2023,T6084,BT-000370-50 R.A,6600,0,8088,0,6290,100,80,2610,8379,586072,65535,164,0,32,42,3838,2316,320,42,4030981,2292817,,1,255,4,shutdown:battery,Heartbeat,
2023-09-12 11:40:16:687,42,2296479,4034,320,CHARGING,5/24/2023,T6084,BT-000370-50 R.A,6600,0,8088,0,6290,100,80,2637,8379,586115,65535,163,0,32,42,3841,2314,320,42,4034679,2296479,,1,255,4,shutdown:battery,Heartbeat,
2023-09-12 11:40:57:854,43,2296479,4037,320,CHARGING,5/24/2023,T6084,BT-000370-50 R.A,6600,0,8088,0,6290,100,80,2664,8379,586156,65535,162,0,32,43,3844,2315,320,43,4037988,2296479,,1,255,4,shutdown:battery,Heartbeat,
2023-09-12 11:41:39:067,43,2297395,4041,320,CHARGING,5/24/2023,T6084,BT-000370-50 R.A,6600,0,8168,0,6290,100,80,2690,8459,586197,65535,162,0,32,43,3848,2317,320,43,4041102,2297395,,1,255,4,shutdown:battery,Heartbeat,
2023-09-12 11:42:20:230,44,2296784,4044,320,CHARGING,5/24/2023,T6084,BT-000370-50 R.A,6600,0,8168,0,6290,100,80,2717,8459,586239,65535,161,0,32,44,3852,2316,320,44,4044800,2296784,,1,255,4,shutdown:battery,Heartbeat,
2023-09-12 11:43:01:380,44,2294038,4048,320,CHARGING,5/24/2023,T6084,BT-000370-50 R.A,6600,0,8168,0,6290,100,80,2744,8459,586280,65535,160,0,32,44,3855,2316,320,44,4048693,2294038,,1,255,4,shutdown:battery,Heartbeat,
2023-09-12 11:43:42:529,45,2294343,4051,320,CHARGING,5/24/2023,T6084,BT-000370-50 R.A,6600,0,8248,0,6290,100,80,2770,8539,586321,65535,160,0,32,45,3859,2317,320,45,4052001,2294343,,1,255,4,shutdown:battery,Heartbeat,
2023-09-12 11:44:23:669,45,2293732,4054,330,CHARGING,5/24/2023,T6084,BT-000370-50 R.A,6600,0,8248,0,6290,100,80,2797,8539,586363,65535,159,0,32,45,3863,2316,330,45,4052975,2290375,,1,255,4,shutdown:battery,Heartbeat,
2023-09-12 11:45:04:913,45,2294038,4059,330,CHARGING,5/24/2023,T6084,BT-000370-50 R.A,6600,0,8248,0,6290,100,80,2823,8539,586404,65535,158,0,32,45,3866,2315,330,45,4059397,2294038,,1,255,4,shutdown:battery,Heartbeat,
2023-09-12 11:45:46:139,46,2298005,4063,330,CHARGING,5/24/2023,T6084,BT-000370-50 R.A,6600,0,8327,0,6290,100,80,2850,8618,586445,65535,158,0,33,46,3870,2315,330,46,4063095,2294953,,1,255,4,shutdown:battery,Heartbeat,
2023-09-12 11:46:27:389,46,2296174,4066,330,CHARGING,5/24/2023,T6084,BT-000370-50 R.A,6600,0,8327,0,6290,100,80,2877,8618,586488,65535,157,0,33,46,3874,2316,330,46,4066793,2296174,,1,255,4,shutdown:battery,Heartbeat,
2023-09-12 11:47:08:586,47,2295258,4070,330,CHARGING,5/24/2023,T6084,BT-000370-50 R.A,6600,0,8327,0,6290,100,80,2903,8618,586528,65535,156,0,33,47,3877,2315,330,47,4071075,2294953,,1,255,4,shutdown:battery,Heartbeat,
2023-09-12 11:47:49:812,47,2294343,4074,330,CHARGING,5/24/2023,T6084,BT-000370-50 R.A,6600,0,8407,0,6290,100,80,2929,8698,586569,65535,155,0,33,47,3881,2316,330,47,4074189,2294343,,1,255,4,shutdown:battery,Heartbeat,
2023-09-12 11:48:31:013,47,2292206,4077,330,CHARGING,5/24/2023,T6084,BT-000370-50 R.A,6600,0,8407,0,6290,100,80,2957,8698,586612,65535,155,0,33,48,3885,2315,330,48,4077887,2292206,,1,255,4,shutdown:battery,Heartbeat,
2023-09-12 11:49:12:152,48,2291596,4081,330,CHARGING,5/24/2023,T6084,BT-000370-50 R.A,6600,0,8407,0,6290,100,80,2983,8698,586653,65535,154,0,33,48,3889,2314,330,48,4081974,2291596,,1,255,4,shutdown:battery,Heartbeat,
2023-09-12 11:49:53:328,48,2293427,4086,330,CHARGING,5/24/2023,T6084,BT-000370-50 R.A,6600,0,8487,0,6290,100,80,3010,8778,586694,65535,153,0,33,48,3893,2316,330,48,4086256,2293427,,1,255,4,shutdown:battery,Heartbeat,
2023-09-12 11:50:34:425,49,2291291,4087,330,CHARGING,5/24/2023,T6084,BT-000370-50 R.A,6600,0,8487,0,6290,100,80,3034,8778,586731,65535,153,0,33,49,3896,2315,330,49,4087230,2291291,,1,255,4,shutdown:battery,Heartbeat,
2023-09-12 11:51:15:667,49,2294953,4092,330,CHARGING,5/24/2023,T6084,BT-000370-50 R.A,6600,0,8487,0,6290,100,80,3060,8778,586772,65535,152,0,33,49,3900,2317,330,49,4092485,2294343,,1,255,4,shutdown:battery,Heartbeat,
2023-09-12 11:51:56:881,50,2294648,4098,330,CHARGING,5/24/2023,T6084,BT-000370-50 R.A,6600,0,8487,0,6290,100,80,3086,8778,586813,65535,151,0,33,50,3903,2316,330,50,4098129,2294648,,1,255,4,shutdown:battery,Heartbeat,
2023-09-12 11:52:38:130,50,2294953,4101,330,CHARGING,5/24/2023,T6084,BT-000370-50 R.A,6600,0,8567,0,6290,100,80,3113,8858,586855,65535,151,0,33,50,3907,2316,330,50,4101437,2294953,,1,255,4,shutdown:battery,Heartbeat,
2023-09-12 11:53:19:364,50,2291596,4105,330,CHARGING,5/24/2023,T6084,BT-000370-50 R.A,6600,0,8567,0,6290,100,80,3140,8858,586896,65535,150,0,33,50,3911,2313,330,50,4104746,2291901,,1,255,4,shutdown:battery,Heartbeat,
2023-09-12 11:54:00:514,51,2293122,4109,330,CHARGING,5/24/2023,T6084,BT-000370-50 R.A,6600,0,8567,0,6290,100,80,3165,8858,586936,65535,149,0,33,51,3915,2313,330,51,4109028,2293122,,1,255,4,shutdown:battery,Heartbeat,
2023-09-12 11:54:41:749,51,2295258,4112,330,CHARGING,5/24/2023,T6084,BT-000370-50 R.A,6600,0,8646,0,6290,100,80,3193,8937,586979,65535,149,0,33,51,3918,2316,330,51,4111753,2295869,,1,255,4,shutdown:battery,Heartbeat,
2023-09-12 11:55:22:922,52,2294648,4116,330,CHARGING,5/24/2023,T6084,BT-000370-50 R.A,6600,0,8646,0,6290,100,80,3219,8937,587020,65535,148,0,33,52,3922,2317,330,52,4116424,2294648,,1,255,4,shutdown:battery,Heartbeat,
2023-09-12 11:56:04:117,52,2283967,4117,330,CHARGING,5/24/2023,T6084,BT-000370-50 R.A,6600,0,8646,0,6289,100,80,3244,8937,587060,65535,147,0,33,52,3926,2316,330,52,4117203,2283967,,1,255,4,shutdown:battery,Heartbeat,
2023-09-12 11:56:45:310,53,2296479,4122,330,CHARGING,5/24/2023,T6084,BT-000370-50 R.A,6600,0,8726,0,6289,100,80,3272,9017,587103,65535,147,0,33,53,3930,2314,330,53,4122847,2296479,,1,255,4,shutdown:battery,Heartbeat,
2023-09-12 11:57:26:570,53,2296174,4127,330,CHARGING,5/24/2023,T6084,BT-000370-50 R.A,6600,0,8726,0,6289,100,80,3298,9017,587143,65535,146,0,33,53,3934,2316,330,53,4127713,2296174,,1,255,4,shutdown:battery,Heartbeat,
2023-09-12 11:58:07:788,53,2291596,4131,330,CHARGING,5/24/2023,T6084,BT-000370-50 R.A,6600,0,8726,0,6289,100,80,3324,9017,587184,65535,145,0,33,53,3937,2315,330,53,4131994,2291596,,1,255,4,shutdown:battery,Heartbeat,
2023-09-12 11:58:49:069,54,2293122,4135,340,CHARGING,5/24/2023,T6084,BT-000370-50 R.A,6600,0,8806,0,6289,100,80,3351,9097,587226,65535,144,0,33,54,3941,2314,340,54,4135108,2293122,,1,255,4,shutdown:battery,Heartbeat,
2023-09-12 11:59:30:255,54,2296174,4139,340,CHARGING,5/24/2023,T6084,BT-000370-50 R.A,6600,0,8806,0,6289,100,80,3377,9097,587267,65535,144,0,33,54,3945,2315,340,54,4139001,2296174,,1,255,4,shutdown:battery,Heartbeat,
2023-09-12 12:00:11:489,55,2293732,4142,340,CHARGING,5/24/2023,T6084,BT-000370-50 R.A,6600,0,8806,0,6289,100,80,3404,9097,587308,65535,143,0,33,55,3948,2315,340,55,4142310,2293732,,1,255,4,shutdown:battery,Heartbeat,
2023-09-12 12:00:52:706,55,2294343,4146,340,CHARGING,5/24/2023,T6084,BT-000370-50 R.A,6600,0,8886,0,6289,100,80,3431,9177,587350,65535,142,0,33,55,3952,2315,340,55,4146008,2294343,,1,255,4,shutdown:battery,Heartbeat,
2023-09-12 12:01:33:892,55,2295563,4149,340,CHARGING,5/24/2023,T6084,BT-000370-50 R.A,6600,0,8886,0,6289,100,80,3457,9177,587391,65535,142,0,33,55,3956,2315,340,55,4149511,2295563,,1,255,4,shutdown:battery,Heartbeat,
2023-09-12 12:02:15:121,56,2289765,4152,340,CHARGING,5/24/2023,T6084,BT-000370-50 R.A,6600,0,8886,0,6289,100,80,3483,9177,587432,65535,141,0,34,56,3959,2315,340,56,4152625,2292206,,1,255,4,shutdown:battery,Heartbeat,
2023-09-12 12:02:56:356,56,2295258,4156,340,CHARGING,5/24/2023,T6084,BT-000370-50 R.A,6600,0,8965,0,6289,100,80,3510,9256,587474,65535,140,0,34,56,3963,2315,340,56,4156323,2295258,,1,255,4,shutdown:battery,Heartbeat,
2023-09-12 12:03:37:625,57,2295258,4161,340,CHARGING,5/24/2023,T6084,BT-000370-50 R.A,6600,0,8965,0,6289,100,80,3537,9256,587515,65535,140,0,34,57,3967,2314,340,57,4161189,2295258,,1,255,4,shutdown:battery,Heartbeat,
2023-09-12 12:04:18:818,57,2297395,4164,340,CHARGING,5/24/2023,T6084,BT-000370-50 R.A,6600,0,8965,0,6289,100,80,3563,9256,587556,65535,139,0,34,57,3970,2314,340,57,4165082,2295869,,1,255,4,shutdown:battery,Heartbeat,
2023-09-12 12:05:00:049,58,2294343,4167,340,CHARGING,5/24/2023,T6084,BT-000370-50 R.A,6600,0,9045,0,6289,100,80,3590,9336,587598,65535,138,0,34,58,3974,2314,340,58,4167612,2294343,,1,255,4,shutdown:battery,Heartbeat,
2023-09-12 12:05:41:295,58,2292817,4171,340,CHARGING,5/24/2023,T6084,BT-000370-50 R.A,6600,0,9045,0,6289,100,80,3616,9336,587639,65535,138,0,34,58,3978,2315,340,58,4171699,2292817,,1,255,4,shutdown:battery,Heartbeat,
2023-09-12 12:06:22:537,58,2294953,4175,340,CHARGING,5/24/2023,T6084,BT-000370-50 R.A,6600,0,9045,0,6289,100,80,3643,9336,587680,65535,137,0,34,58,3981,2314,340,58,4175008,2293732,,1,255,4,shutdown:battery,Heartbeat,
2023-09-12 12:07:03:759,59,2293427,4178,340,CHARGING,5/24/2023,T6084,BT-000370-50 R.A,6600,0,9125,0,6289,100,80,3670,9416,587722,65535,136,0,34,59,3985,2314,340,59,4178706,2293427,,1,255,4,shutdown:battery,Heartbeat,
2023-09-12 12:07:44:870,59,2292512,4180,340,CHARGING,5/24/2023,T6084,BT-000370-50 R.A,6600,0,9125,0,6289,100,80,3696,9416,587763,65535,136,0,34,59,3988,2316,340,59,4176370,2268708,,1,255,4,shutdown:battery,Heartbeat,
2023-09-12 12:08:26:134,60,2292512,4185,340,CHARGING,5/24/2023,T6084,BT-000370-50 R.A,6600,0,9125,0,6289,100,80,3722,9416,587803,65535,135,0,34,60,3991,2315,340,60,4185128,2292512,,1,255,4,shutdown:battery,Heartbeat,
2023-09-12 12:09:07:267,60,2293427,4188,340,CHARGING,5/24/2023,T6084,BT-000370-50 R.A,6600,0,9204,0,6289,100,80,3746,9495,587840,65535,134,0,34,60,3994,2316,340,60,4188242,2293427,,1,255,4,shutdown:battery,Heartbeat,
2023-09-12 12:09:48:453,60,2295258,4192,340,CHARGING,5/24/2023,T6084,BT-000370-50 R.A,6600,0,9204,0,6289,100,80,3775,9495,587886,65535,134,0,34,61,3998,2315,340,61,4192524,2295258,,1,255,4,shutdown:battery,Heartbeat,
2023-09-12 12:10:29:687,61,2293427,4195,340,CHARGING,5/24/2023,T6084,BT-000370-50 R.A,6600,0,9204,0,6289,100,80,3802,9495,587927,65535,133,0,34,61,4001,2314,340,61,4194860,2294038,,1,255,4,shutdown:battery,Heartbeat,
2023-09-12 12:11:10:828,61,2292817,4198,340,CHARGING,5/24/2023,T6084,BT-000370-50 R.A,6600,0,9284,0,6289,100,80,3825,9575,587964,65535,132,0,34,61,4004,2312,340,61,4198752,2292817,,1,255,4,shutdown:battery,Heartbeat,
2023-09-12 12:11:52:070,62,2292817,4201,340,CHARGING,5/24/2023,T6084,BT-000370-50 R.A,6600,0,9284,0,6289,100,80,3852,9575,588005,65535,132,0,34,62,4008,2314,340,62,4201867,2292817,,1,255,4,shutdown:battery,Heartbeat,
2023-09-12 12:12:33:238,62,2291291,4201,340,CHARGING,5/24/2023,T6084,BT-000370-50 R.A,6600,0,9284,0,6289,100,80,3878,9575,588046,65535,131,0,34,62,4011,2314,340,62,4201672,2291291,,1,255,4,shutdown:battery,Heartbeat,
2023-09-12 12:13:14:327,63,2270234,4205,340,CHARGING,5/24/2023,T6084,BT-000370-50 R.A,6600,0,9363,0,6289,100,80,3905,9654,588088,65535,130,0,34,63,4013,2297,340,63,4205175,2270234,,1,255,4,shutdown:battery,Heartbeat,
2023-09-12 12:13:55:587,63,2250092,4204,340,CHARGING,5/24/2023,T6084,BT-000370-50 R.A,6600,0,9363,0,6289,100,80,3931,9654,588129,65535,130,0,34,63,4015,2273,340,63,4204202,2250092,,1,255,4,shutdown:battery,Heartbeat,
2023-09-12 12:14:36:805,63,2230560,4204,340,CHARGING,5/24/2023,T6084,BT-000370-50 R.A,6600,0,9363,0,6289,100,80,3957,9654,588170,65535,130,0,34,63,4016,2252,340,63,4204981,2230560,,1,255,4,shutdown:battery,Heartbeat,
2023-09-12 12:15:18:091,64,2206451,4205,340,CHARGING,5/24/2023,T6084,BT-000370-50 R.A,6600,0,9442,0,6289,100,80,3983,9733,588212,65535,130,0,34,64,4018,2231,340,64,4204786,2207672,,1,255,4,shutdown:battery,Heartbeat,
2023-09-12 12:15:59:311,64,2193023,4205,340,CHARGING,5/24/2023,T6084,BT-000370-50 R.A,6600,0,9442,0,6289,100,80,4008,9733,588253,65535,130,0,34,64,4020,2215,340,64,4205370,2193023,,1,255,4,shutdown:battery,Heartbeat,
2023-09-12 12:16:40:515,65,2163115,4205,340,CHARGING,5/24/2023,T6084,BT-000370-50 R.A,6600,0,9442,0,6289,100,80,4033,9733,588294,65535,130,0,34,65,4022,2193,340,65,4205954,2163115,,1,255,4,shutdown:battery,Heartbeat,
2023-09-12 12:17:21:708,65,2147551,4205,340,CHARGING,5/24/2023,T6084,BT-000370-50 R.A,6600,0,9518,0,6289,100,80,4059,9809,588336,65535,129,0,34,65,4023,2169,340,65,4205565,2147551,,1,255,4,shutdown:battery,Heartbeat,
2023-09-12 12:18:02:890,65,2126494,4205,340,CHARGING,5/24/2023,T6084,BT-000370-50 R.A,6600,0,9518,0,6289,100,80,4083,9809,588377,65535,129,0,34,65,4025,2148,340,65,4205175,2128325,,1,255,4,shutdown:battery,Heartbeat,
2023-09-12 12:18:44:151,66,2111235,4205,340,CHARGING,5/24/2023,T6084,BT-000370-50 R.A,6600,0,9518,0,6289,100,80,4107,9809,588417,65535,129,0,34,66,4027,2133,340,66,4205954,2111845,,1,255,4,shutdown:battery,Heartbeat,
2023-09-12 12:19:25:369,66,2102385,4205,340,CHARGING,5/24/2023,T6084,BT-000370-50 R.A,6600,0,9592,0,6289,100,80,4132,9883,588459,65535,129,0,34,66,4028,2111,340,66,4205565,2102385,,1,255,4,shutdown:battery,Heartbeat,
2023-09-12 12:20:06:594,67,2076749,4205,340,CHARGING,5/24/2023,T6084,BT-000370-50 R.A,6600,0,9592,0,6289,100,80,4156,9883,588500,65535,129,0,34,67,4030,2093,340,67,4205370,2076749,,1,255,4,shutdown:battery,Heartbeat,
2023-09-12 12:20:47:776,67,2050199,4205,340,CHARGING,5/24/2023,T6084,BT-000370-50 R.A,6600,0,9592,0,6289,100,80,4179,9883,588541,65535,128,0,34,67,4031,2072,340,67,4205175,2052640,,1,255,4,shutdown:battery,Heartbeat,
2023-09-12 12:21:29:008,67,2034024,4205,340,CHARGING,5/24/2023,T6084,BT-000370-50 R.A,6600,0,9664,0,6289,100,80,4204,9955,588583,65535,128,0,34,67,4033,2061,340,67,4205175,2034024,,1,255,4,shutdown:battery,Heartbeat,
2023-09-12 12:22:10:168,68,2013882,4205,340,CHARGING,5/24/2023,T6084,BT-000370-50 R.A,6600,0,9664,0,6289,100,80,4227,9955,588624,65535,128,0,34,68,4035,2037,340,68,4205175,2013882,,1,255,4,shutdown:battery,Heartbeat,
2023-09-12 12:22:51:330,68,1996487,4205,340,CHARGING,5/24/2023,T6084,BT-000370-50 R.A,6600,0,9664,0,6289,100,80,4250,9955,588665,65535,128,0,34,68,4036,2016,340,68,4205565,1996487,,1,255,4,shutdown:battery,Heartbeat,
2023-09-12 12:23:32:558,68,1980007,4205,340,CHARGING,5/24/2023,T6084,BT-000370-50 R.A,6600,0,9735,0,6289,100,80,4273,10026,588707,65535,128,0,34,68,4038,1999,340,68,4205759,1980007,,1,255,4,shutdown:battery,Heartbeat,
2023-09-12 12:24:13:631,69,1961086,4205,340,CHARGING,5/24/2023,T6084,BT-000370-50 R.A,6600,0,9735,0,6289,100,80,4296,10026,588748,65535,127,0,34,69,4039,1981,340,69,4205370,1961086,,1,255,4,shutdown:battery,Heartbeat,
2023-09-12 12:24:54:770,69,1940944,4204,340,CHARGING,5/24/2023,T6084,BT-000370-50 R.A,6600,0,9735,0,6289,100,80,4319,10026,588789,65535,127,0,34,69,4041,1961,340,69,4204981,1940944,,1,255,4,shutdown:battery,Heartbeat,
2023-09-12 12:25:36:009,70,1938503,4206,340,CHARGING,5/24/2023,T6084,BT-000370-50 R.A,6600,0,9803,0,6289,100,80,4341,10094,588831,65535,127,0,34,70,4042,1944,340,70,4206732,1938503,,1,255,4,shutdown:battery,Heartbeat,
2023-09-12 12:26:17:153,70,1914394,4205,340,CHARGING,5/24/2023,T6084,BT-000370-50 R.A,6600,0,9803,0,6289,100,80,4363,10094,588872,65535,127,0,34,70,4045,1932,340,70,4205954,1914394,,1,255,4,shutdown:battery,Heartbeat,
2023-09-12 12:26:58:328,70,1886622,4205,340,CHARGING,5/24/2023,T6084,BT-000370-50 R.A,6600,0,9803,0,6289,100,80,4385,10094,588913,65535,127,0,33,70,4046,1913,340,70,4205175,1886622,,1,255,4,shutdown:battery,Heartbeat,
2023-09-12 12:27:39:533,71,1866786,4205,340,CHARGING,5/24/2023,T6084,BT-000370-50 R.A,6600,0,9870,0,6289,100,80,4405,10161,588950,65535,126,0,33,71,4047,1891,340,71,4205565,1869532,,1,255,4,shutdown:battery,Heartbeat,
2023-09-12 12:28:20:749,71,1849085,4205,340,CHARGING,5/24/2023,T6084,BT-000370-50 R.A,6600,0,9870,0,6289,100,80,4426,10161,588991,65535,126,0,33,71,4048,1873,340,71,4205565,1853968,,1,255,4,shutdown:battery,Heartbeat,
2023-09-12 12:29:01:931,71,1832300,4205,340,CHARGING,5/24/2023,T6084,BT-000370-50 R.A,6600,0,9870,0,6289,100,80,4450,10161,589037,65535,126,0,33,71,4050,1849,340,71,4205565,1832300,,1,255,4,shutdown:battery,Heartbeat,
2023-09-12 12:29:43:130,72,1813379,4205,340,CHARGING,5/24/2023,T6084,BT-000370-50 R.A,6600,0,9935,0,6289,100,80,4469,10226,589074,65535,126,0,33,72,4051,1836,340,72,4205954,1813379,,1,255,4,shutdown:battery,Heartbeat,
2023-09-12 12:30:24:355,72,1794763,4206,330,CHARGING,5/24/2023,T6084,BT-000370-50 R.A,6600,0,9935,0,6289,100,80,4490,10226,589115,65535,126,0,33,72,4053,1815,330,72,4205370,1796289,,1,255,4,shutdown:battery,Heartbeat,
2023-09-12 12:31:05:594,72,1795679,4206,330,CHARGING,5/24/2023,T6084,BT-000370-50 R.A,6600,0,9935,0,6289,100,80,4510,10226,589156,65535,126,0,33,72,4055,1798,330,72,4206148,1795679,,1,255,4,shutdown:battery,Heartbeat,
2023-09-12 12:31:46:791,73,1760278,4204,330,CHARGING,5/24/2023,T6084,BT-000370-50 R.A,6600,0,9997,0,6289,100,80,4531,10288,589198,65535,125,0,33,73,4056,1779,330,73,4204981,1760278,,1,255,4,shutdown:battery,Heartbeat,
2023-09-12 12:32:28:007,73,1737694,4205,330,CHARGING,5/24/2023,T6084,BT-000370-50 R.A,6600,0,9997,0,6289,100,80,4551,10288,589239,65535,125,0,33,73,4058,1760,330,73,4205759,1738610,,1,255,4,shutdown:battery,Heartbeat,
2023-09-12 12:33:09:231,73,1722130,4206,330,CHARGING,5/24/2023,T6084,BT-000370-50 R.A,6600,0,9997,0,6289,100,80,4571,10288,589280,65535,125,0,33,73,4059,1742,330,73,4206148,1722130,,1,255,4,shutdown:battery,Heartbeat,
2023-09-12 12:33:50:460,74,1707482,4206,330,CHARGING,5/24/2023,T6084,BT-000370-50 R.A,6600,0,10059,0,6289,100,80,4592,10350,589323,65535,125,0,33,74,4061,1727,330,74,4206148,1707482,,1,255,4,shutdown:battery,Heartbeat,
2023-09-12 12:34:31:595,74,1684898,4205,330,CHARGING,5/24/2023,T6084,BT-000370-50 R.A,6600,0,10059,0,6289,100,80,4611,10350,589364,65535,125,0,33,74,4062,1703,330,74,4205759,1686119,,1,255,4,shutdown:battery,Heartbeat,
2023-09-12 12:35:12:770,74,1663841,4205,330,CHARGING,5/24/2023,T6084,BT-000370-50 R.A,6600,0,10059,0,6289,100,80,4631,10350,589405,65535,125,0,33,74,4064,1682,330,74,4206148,1664451,,1,255,4,shutdown:battery,Heartbeat,
2023-09-12 12:35:53:976,74,1644309,4204,330,CHARGING,5/24/2023,T6084,BT-000370-50 R.A,6600,0,10117,0,6289,100,80,4650,10408,589447,65535,125,0,33,74,4065,1664,330,74,4204786,1644309,,1,255,4,shutdown:battery,Heartbeat,
2023-09-12 12:36:35:146,75,1628135,4206,330,CHARGING,5/24/2023,T6084,BT-000370-50 R.A,6600,0,10117,0,6289,100,80,4669,10408,589488,65535,125,0,33,75,4067,1644,330,75,4206148,1628135,,1,255,4,shutdown:battery,Heartbeat,
2023-09-12 12:37:16:315,75,1616843,4205,330,CHARGING,5/24/2023,T6084,BT-000370-50 R.A,6600,0,10117,0,6289,100,80,4688,10408,589529,65535,118,0,33,75,4069,1625,330,75,4205565,1616843,,1,255,4,shutdown:battery,Heartbeat,
2023-09-12 12:37:57:453,75,1594565,4206,330,CHARGING,5/24/2023,T6084,BT-000370-50 R.A,6600,0,10174,0,6289,100,80,4707,10465,589571,65535,118,0,33,75,4070,1605,330,75,4206732,1594565,,1,255,4,shutdown:battery,Heartbeat,
2023-09-12 12:38:38:611,76,1571371,4205,330,CHARGING,5/24/2023,T6084,BT-000370-50 R.A,6600,0,10174,0,6289,100,80,4725,10465,589612,65535,118,0,33,76,4072,1589,330,76,4206148,1571371,,1,255,4,shutdown:battery,Heartbeat,
2023-09-12 12:39:19:789,76,1547872,4206,330,CHARGING,5/24/2023,T6084,BT-000370-50 R.A,6600,0,10174,0,6289,100,80,4743,10465,589653,65535,118,0,33,76,4074,1575,330,76,4206148,1547872,,1,255,4,shutdown:battery,Heartbeat,
2023-09-12 12:40:01:024,76,1532919,4206,330,CHARGING,5/24/2023,T6084,BT-000370-50 R.A,6600,0,10229,0,6289,100,80,4761,10520,589695,65535,117,0,33,76,4075,1550,330,76,4206148,1532919,,1,255,4,shutdown:battery,Heartbeat,
2023-09-12 12:40:42:252,76,1514608,4206,330,CHARGING,5/24/2023,T6084,BT-000370-50 R.A,6600,0,10229,0,6289,100,80,4779,10520,589736,65535,117,0,33,76,4077,1531,330,76,4206148,1516134,,1,255,4,shutdown:battery,Heartbeat,
2023-09-12 12:41:23:447,77,1493550,4206,330,CHARGING,5/24/2023,T6084,BT-000370-50 R.A,6600,0,10229,0,6289,100,80,4796,10520,589777,65535,117,0,33,77,4079,1512,330,77,4206343,1494466,,1,255,4,shutdown:battery,Heartbeat,
2023-09-12 12:42:04:629,77,1480123,4206,330,CHARGING,5/24/2023,T6084,BT-000370-50 R.A,6600,0,10282,0,6289,100,80,4813,10573,589819,65535,117,0,33,77,4080,1492,330,77,4206538,1479207,,1,255,4,shutdown:battery,Heartbeat,
2023-09-12 12:42:45:660,77,1458760,4205,330,CHARGING,5/24/2023,T6084,BT-000370-50 R.A,6600,0,10282,0,6289,100,80,4830,10573,589860,65535,117,0,32,77,4082,1476,330,77,4206732,1463338,,1,255,4,shutdown:battery,Heartbeat,
2023-09-12 12:43:26:787,78,1447163,4206,330,CHARGING,5/24/2023,T6084,BT-000370-50 R.A,6600,0,10282,0,6289,100,80,4847,10573,589901,65535,117,0,32,78,4083,1455,330,78,4206538,1447163,,1,255,4,shutdown:battery,Heartbeat,
2023-09-12 12:44:07:889,78,1424580,4205,330,CHARGING,5/24/2023,T6084,BT-000370-50 R.A,6600,0,10333,0,6289,100,80,4862,10624,589938,65535,117,0,32,78,4085,1437,330,78,4205954,1424580,,1,255,4,shutdown:battery,Heartbeat,
2023-09-12 12:44:49:035,78,1406574,4206,320,CHARGING,5/24/2023,T6084,BT-000370-50 R.A,6600,0,10333,0,6289,100,80,4881,10624,589985,65535,111,0,32,78,4086,1418,320,78,4206538,1406574,,1,255,4,shutdown:battery,Heartbeat,
2023-09-12 12:45:30:253,78,1388874,4206,320,CHARGING,5/24/2023,T6084,BT-000370-50 R.A,6600,0,10333,0,6289,100,80,4896,10624,590025,65535,111,0,32,78,4088,1404,320,78,4206148,1388874,,1,255,4,shutdown:battery,Heartbeat,
2023-09-12 12:46:11:348,79,1366901,4206,320,CHARGING,5/24/2023,T6084,BT-000370-50 R.A,6600,0,10382,0,6289,100,80,4911,10673,590063,65535,111,0,32,79,4090,1389,320,79,4206148,1366901,,1,255,4,shutdown:battery,Heartbeat,
2023-09-12 12:46:52:500,79,1348590,4206,320,CHARGING,5/24/2023,T6084,BT-000370-50 R.A,6600,0,10382,0,6289,100,80,4926,10673,590103,65535,111,0,32,79,4091,1373,320,79,4206732,1349200,,1,255,4,shutdown:battery,Heartbeat,
2023-09-12 12:47:33:670,79,1333026,4206,320,CHARGING,5/24/2023,T6084,BT-000370-50 R.A,6600,0,10382,0,6289,100,80,4942,10673,590144,65535,111,0,32,79,4092,1352,320,79,4206538,1333026,,1,255,4,shutdown:battery,Heartbeat,
2023-09-12 12:48:14:849,79,1319293,4205,320,CHARGING,5/24/2023,T6084,BT-000370-50 R.A,6600,0,10430,0,6289,100,80,4958,10721,590187,65535,111,0,32,79,4094,1330,320,79,4205954,1319293,,1,255,4,shutdown:battery,Heartbeat,
2023-09-12 12:48:56:090,80,1295794,4207,320,CHARGING,5/24/2023,T6084,BT-000370-50 R.A,6600,0,10430,0,6289,100,80,4973,10721,590228,65535,111,0,32,80,4095,1313,320,80,4207122,1295794,,1,255,4,shutdown:battery,Heartbeat,
2023-09-12 12:49:37:302,80,1289385,4205,320,CHARGING,5/24/2023,T6084,BT-000370-50 R.A,6600,0,10430,0,6289,100,80,4987,10721,590268,65535,111,0,32,80,4096,1296,320,80,4206538,1289080,,1,255,4,shutdown:battery,Heartbeat,
2023-09-12 12:50:18:491,80,1270769,4206,320,CHARGING,5/24/2023,T6084,BT-000370-50 R.A,6600,0,10475,0,6289,100,80,5003,10766,590311,65535,110,0,32,80,4098,1278,320,80,4206343,1268328,,1,255,4,shutdown:battery,Heartbeat,
2023-09-12 12:50:59:777,80,1246965,4206,320,CHARGING,5/24/2023,T6084,BT-000370-50 R.A,6600,0,10475,0,6289,100,80,5017,10766,590352,65535,110,0,32,80,4099,1260,320,80,4206148,1248186,,1,255,4,shutdown:battery,Heartbeat,
2023-09-12 12:51:41:009,80,1228959,4205,320,CHARGING,5/24/2023,T6084,BT-000370-50 R.A,6600,0,10475,0,6289,100,80,5031,10766,590392,65535,111,0,32,80,4100,1244,320,80,4205954,1228959,,1,255,4,shutdown:battery,Heartbeat,
2023-09-12 12:52:22:255,81,1214921,4206,320,CHARGING,5/24/2023,T6084,BT-000370-50 R.A,6600,0,10519,0,6289,100,80,5046,10810,590435,65535,110,0,32,81,4102,1226,320,81,4206343,1214921,,1,255,4,shutdown:battery,Heartbeat,
2023-09-12 12:53:03:451,81,1194779,4205,320,CHARGING,5/24/2023,T6084,BT-000370-50 R.A,6600,0,10519,0,6289,100,80,5059,10810,590475,65535,104,0,32,81,4103,1211,320,81,4206927,1201798,,1,255,4,shutdown:battery,Heartbeat,
2023-09-12 12:53:44:640,81,1182267,4206,320,CHARGING,5/24/2023,T6084,BT-000370-50 R.A,6600,0,10519,0,6289,100,80,5073,10810,590516,65535,104,0,32,81,4104,1195,320,81,4206927,1182267,,1,255,4,shutdown:battery,Heartbeat,
2023-09-12 12:54:25:757,81,1168534,4206,320,CHARGING,5/24/2023,T6084,BT-000370-50 R.A,6600,0,10560,0,6289,100,80,5087,10851,590558,65535,104,0,31,81,4106,1180,320,81,4206538,1168534,,1,255,4,shutdown:battery,Heartbeat,
2023-09-12 12:55:06:947,82,1165177,4206,320,CHARGING,5/24/2023,T6084,BT-000370-50 R.A,6600,0,10560,0,6289,100,80,5100,10851,590599,65535,104,0,31,82,4107,1166,320,82,4206927,1165177,,1,255,4,shutdown:battery,Heartbeat,
2023-09-12 12:55:48:171,82,1140457,4205,310,CHARGING,5/24/2023,T6084,BT-000370-50 R.A,6600,0,10560,0,6289,100,80,5114,10851,590640,65535,104,0,31,82,4108,1150,310,82,4206343,1142593,,1,255,4,shutdown:battery,Heartbeat,
2023-09-12 12:56:29:309,82,1123977,4207,310,CHARGING,5/24/2023,T6084,BT-000370-50 R.A,6600,0,10601,0,6289,100,80,5127,10892,590682,65535,104,0,31,82,4110,1142,310,82,4207511,1123977,,1,255,4,shutdown:battery,Heartbeat,
2023-09-12 12:57:10:519,82,1109634,4206,310,CHARGING,5/24/2023,T6084,BT-000370-50 R.A,6600,0,10601,0,6289,100,80,5140,10892,590723,65535,104,0,31,82,4111,1131,310,82,4206732,1109634,,1,255,4,shutdown:battery,Heartbeat,
2023-09-12 12:57:51:750,82,1097122,4207,310,CHARGING,5/24/2023,T6084,BT-000370-50 R.A,6600,0,10601,0,6289,100,80,5153,10892,590764,65535,104,1,31,82,4112,1113,310,82,4207316,1097122,,1,255,4,shutdown:battery,Heartbeat,
2023-09-12 12:58:32:930,83,1083694,4206,310,CHARGING,5/24/2023,T6084,BT-000370-50 R.A,6600,0,10639,0,6289,100,80,5165,10930,590806,65535,104,1,31,83,4113,1095,310,83,4206343,1083694,,1,255,4,shutdown:battery,Heartbeat,
2023-09-12 12:59:14:090,83,1071792,4206,310,CHARGING,5/24/2023,T6084,BT-000370-50 R.A,6600,0,10639,0,6289,100,80,5178,10930,590847,65535,104,1,31,83,4114,1082,310,83,4206732,1071792,,1,255,4,shutdown:battery,Heartbeat,
2023-09-12 12:59:55:287,83,1058669,4206,310,CHARGING,5/24/2023,T6084,BT-000370-50 R.A,6600,0,10639,0,6289,100,80,5190,10930,590888,65535,104,1,31,83,4115,1070,310,83,4206927,1058669,,1,255,4,shutdown:battery,Heartbeat,
2023-09-12 13:00:36:472,83,1046767,4207,310,CHARGING,5/24/2023,T6084,BT-000370-50 R.A,6600,0,10677,0,6289,100,80,5202,10968,590930,65535,104,1,31,83,4116,1055,310,83,4207511,1046767,,1,255,4,shutdown:battery,Heartbeat,
2023-09-12 13:01:17:668,83,1038832,4206,310,CHARGING,5/24/2023,T6084,BT-000370-50 R.A,6600,0,10677,0,6289,100,80,5214,10968,590971,65535,104,1,31,83,4117,1043,310,83,4206732,1038832,,1,255,4,shutdown:battery,Heartbeat,
2023-09-12 13:01:58:829,84,1025404,4207,310,CHARGING,5/24/2023,T6084,BT-000370-50 R.A,6600,0,10677,0,6289,100,80,5226,10968,591012,65535,104,1,31,84,4119,1040,310,84,4207705,1025404,,1,255,4,shutdown:battery,Heartbeat,
2023-09-12 13:02:39:956,84,1009840,4206,310,CHARGING,5/24/2023,T6084,BT-000370-50 R.A,6600,0,10713,0,6289,100,80,5237,11004,591049,65535,104,1,31,84,4119,1021,310,84,4206732,1009840,,1,255,4,shutdown:battery,Heartbeat,
2023-09-12 13:03:21:166,84,997633,4206,310,CHARGING,5/24/2023,T6084,BT-000370-50 R.A,6600,0,10713,0,6289,100,80,5248,11004,591089,65535,97,1,31,84,4120,1010,310,84,4206732,997633,,1,255,4,shutdown:battery,Heartbeat,
2023-09-12 13:04:02:345,84,989698,4207,310,CHARGING,5/24/2023,T6084,BT-000370-50 R.A,6600,0,10713,0,6289,100,80,5261,11004,591135,65535,97,1,31,84,4121,998,310,84,4207316,989698,,1,255,4,shutdown:battery,Heartbeat,
2023-09-12 13:04:43:539,84,974134,4206,310,CHARGING,5/24/2023,T6084,BT-000370-50 R.A,6600,0,10747,0,6289,100,80,5271,11038,591172,65535,97,1,31,84,4123,993,310,84,4206927,974134,,1,255,4,shutdown:battery,Heartbeat,
2023-09-12 13:05:24:793,84,968030,4207,310,CHARGING,5/24/2023,T6084,BT-000370-50 R.A,6600,0,10747,0,6289,100,80,5282,11038,591213,65535,97,1,30,84,4123,977,310,84,4207316,966199,,1,255,4,shutdown:battery,Heartbeat,
2023-09-12 13:06:05:913,85,955518,4207,300,CHARGING,5/24/2023,T6084,BT-000370-50 R.A,6600,0,10747,0,6289,100,80,5293,11038,591254,65535,97,1,30,85,4124,966,300,85,4207316,955518,,1,255,4,shutdown:battery,Heartbeat,
2023-09-12 13:06:47:141,85,952161,4206,300,CHARGING,5/24/2023,T6084,BT-000370-50 R.A,6600,0,10781,0,6289,100,80,5305,11072,591296,65535,97,1,30,85,4125,955,300,85,4206732,952771,,1,255,4,shutdown:battery,Heartbeat,
2023-09-12 13:07:28:315,85,940869,4207,300,CHARGING,5/24/2023,T6084,BT-000370-50 R.A,6600,0,10781,0,6289,100,80,5315,11072,591337,65535,97,1,30,85,4126,944,300,85,4207122,940869,,1,255,4,shutdown:battery,Heartbeat,
2023-09-12 13:08:09:590,85,924390,4207,300,CHARGING,5/24/2023,T6084,BT-000370-50 R.A,6600,0,10781,0,6289,100,80,5326,11072,591378,65535,97,1,30,85,4127,934,300,85,4207705,924390,,1,255,4,shutdown:battery,Heartbeat,
2023-09-12 13:08:50:810,85,913403,4207,300,CHARGING,5/24/2023,T6084,BT-000370-50 R.A,6600,0,10814,0,6289,100,80,5337,11105,591420,65535,97,1,30,85,4128,926,300,85,4207122,913403,,1,255,4,shutdown:battery,Heartbeat,
2023-09-12 13:09:32:071,86,906689,4207,300,CHARGING,5/24/2023,T6084,BT-000370-50 R.A,6600,0,10814,0,6280,100,80,5339,11105,591461,65535,96,1,30,86,4129,921,300,86,4206732,903637,,1,255,4,shutdown:battery,Heartbeat,
2023-09-12 13:10:13:328,86,892651,4207,300,CHARGING,5/24/2023,T6084,BT-000370-50 R.A,6600,0,10814,0,6280,100,80,5349,11105,591502,65535,96,1,30,86,4129,908,300,86,4207316,892651,,1,255,4,shutdown:battery,Heartbeat,
2023-09-12 13:10:54:627,86,888989,4206,300,CHARGING,5/24/2023,T6084,BT-000370-50 R.A,6600,0,10845,0,6280,100,80,5359,11136,591544,65535,96,1,30,86,4130,895,300,86,4206732,888989,,1,255,4,shutdown:battery,Heartbeat,
2023-09-12 13:11:35:808,86,881665,4207,300,CHARGING,5/24/2023,T6084,BT-000370-50 R.A,6600,0,10845,0,6280,100,80,5370,11136,591585,65535,96,1,30,86,4130,889,300,86,4207316,881665,,1,255,4,shutdown:battery,Heartbeat,
2023-09-12 13:12:17:029,86,867016,4207,300,CHARGING,5/24/2023,T6084,BT-000370-50 R.A,6600,0,10845,0,6280,100,80,5380,11136,591626,65535,96,1,30,86,4131,878,300,86,4207316,870068,,1,255,4,shutdown:battery,Heartbeat,
2023-09-12 13:12:58:248,86,864574,4206,300,CHARGING,5/24/2023,T6084,BT-000370-50 R.A,6600,0,10876,0,6280,100,80,5390,11167,591669,65535,95,1,30,86,4132,868,300,86,4206927,864574,,1,255,4,shutdown:battery,Heartbeat,
2023-09-12 13:13:39:487,86,851452,4206,300,CHARGING,5/24/2023,T6084,BT-000370-50 R.A,6600,0,10876,0,6280,100,80,5400,11167,591710,65535,95,1,30,86,4132,861,300,86,4206927,851452,,1,255,4,shutdown:battery,Heartbeat,
2023-09-12 13:14:20:690,87,840770,4207,300,CHARGING,5/24/2023,T6084,BT-000370-50 R.A,6600,0,10876,0,6280,100,80,5410,11167,591750,65535,95,1,30,87,4133,852,300,87,4207122,840770,,1,255,4,shutdown:battery,Heartbeat,
2023-09-12 13:15:01:831,87,835888,4206,300,CHARGING,5/24/2023,T6084,BT-000370-50 R.A,6600,0,10905,0,6280,100,80,5420,11196,591793,65535,95,1,30,87,4134,847,300,87,4206732,835888,,1,255,4,shutdown:battery,Heartbeat,
2023-09-12 13:15:43:067,87,829174,4207,300,CHARGING,5/24/2023,T6084,BT-000370-50 R.A,6600,0,10905,0,6280,100,80,5429,11196,591834,65535,95,1,30,87,4134,834,300,87,4207316,829174,,1,255,4,shutdown:battery,Heartbeat,
2023-09-12 13:16:24:197,87,850536,4206,300,CHARGING,5/24/2023,T6084,BT-000370-50 R.A,6600,0,10905,0,6280,100,80,5439,11196,591875,65535,94,1,30,87,4135,831,300,87,4207511,838634,,1,255,4,shutdown:battery,Heartbeat,
2023-09-12 13:17:05:305,87,815746,4207,300,CHARGING,5/24/2023,T6084,BT-000370-50 R.A,6600,0,10934,0,6280,100,80,5448,11225,591917,65535,94,1,30,87,4136,823,300,87,4206732,813915,,1,255,4,shutdown:battery,Heartbeat,
2023-09-12 13:17:46:556,87,811473,4206,300,CHARGING,5/24/2023,T6084,BT-000370-50 R.A,6600,0,10934,0,6280,100,80,5458,11225,591958,65535,94,1,30,87,4136,816,300,87,4206732,810863,,1,255,4,shutdown:battery,Heartbeat,
2023-09-12 13:18:27:829,88,810863,4207,300,CHARGING,5/24/2023,T6084,BT-000370-50 R.A,6600,0,10934,0,6280,100,80,5467,11225,591999,65535,88,1,29,88,4137,811,300,88,4207122,810863,,1,255,4,shutdown:battery,Heartbeat,
2023-09-12 13:19:09:054,88,797130,4206,300,CHARGING,5/24/2023,T6084,BT-000370-50 R.A,6600,0,10963,0,6280,100,80,5476,11254,592041,65535,88,1,29,88,4137,805,300,88,4206732,797130,,1,255,4,shutdown:battery,Heartbeat,
2023-09-12 13:19:39:087,88,795299,4207,300,CHARGING,5/24/2023,T6084,BT-000370-50 R.A,6600,0,10963,0,6280,100,80,5482,11254,592067,65535,88,1,29,88,4138,796,300,88,4207122,795299,,1,255,4,shutdown:battery,Heartbeat,
,,,,,,,,,,,,,,,,,,,,,,,,,,,,,,,,,,,,
,,,,,,,,,,,,,,,,,,,,,,,,,,,,,,,,,,,,
,,,,,,,,,,,,,,,,,,,,,,,,,,,,,,,,,,,,
,,,,,,,,,,,,,,,,,,,,,,,,,,,,,,,,,,,,
,,,,,,,,,,,,,,,,,,,,,,,,,,,,,,,,,,,,
,,,,,,,,,,,,,,,,,,,,,,,,,,,,,,,,,,,,
,,,,,,,,,,,,,,,,,,,,,,,,,,,,,,,,,,,,